currentTime,acc_x,acc_y,acc_z,gyro_x,gyro_y,gyro_z,activity,fallDetected,fallPrediction,walkingDeterioration
1,0.23,0.83,0.42,63,29.05,15.8,1,0,0,0
2,0.22,0.84,0.4,64.72,28.77,14.53,1,0,0,0
3,0.16,0.83,0.38,65.19,22.2,10.68,1,0,0,0
4,0.12,0.87,0.42,64.06,15.52,7.7,2,0,0,0
5,0.26,0.81,0.24,73.4,46.79,17.6,2,0,0,0
6,0.27,0.87,0.36,67.49,37.27,17.5,2,0,0,0
7,0.16,0.82,0.34,67.26,24.44,10.78,2,0,0,0
8,0.26,0.73,0.23,72.85,48.69,19.34,2,0,0,0
9,0.29,0.8,0.42,62.1,34.42,19.94,2,0,0,0
10,0.12,0.87,0.33,69.27,19.65,7.7,2,0,0,0
11,0.39,1.06,0.05,87.47,83.16,20.19,2,0,0,0
12,0.37,0.84,0.13,81.57,71.2,23.52,2,0,0,1
13,0.13,0.89,0.21,76.68,30.65,7.99,2,0,0,1
14,0.27,0.95,0.09,84.38,71.08,16.01,2,0,0,1
15,0.39,0.78,0.13,80.35,71.22,26.57,2,0,0,1
16,0.16,0.96,0.24,75.85,32.83,9.24,2,0,0,1
17,0.29,1,0.11,83.76,69.27,16.12,2,0,0,1
18,0.36,0.82,0.2,76.61,61.48,23.66,2,0,0,1
19,0.13,0.93,0.31,71.42,23.03,8.13,2,0,0,1
20,0.3,0.91,0.07,85.56,77.01,18.58,2,0,0,1
21,0.38,0.85,0.14,80.62,69.44,23.77,2,0,0,1
22,0.13,0.91,0.27,73.21,25.91,8.34,2,0,0,1
23,0.16,0.88,0.23,75.61,35.91,10.53,2,0,0,1
24,0.36,0.83,0.07,85.15,78.93,23.46,2,0,0,1
25,0.15,0.86,0.22,75.72,34.16,9.8,2,0,0,1
26,0.13,0.91,0.25,74.58,27.98,8.34,2,0,0,1
27,0.4,0.95,0,90,90,22.69,2,0,0,1
28,0.29,0.95,0.25,75.3,49.14,16.87,2,0,0,1
29,0.13,0.89,0.3,71.57,22.83,7.99,2,0,0,1
30,0.43,0.87,0.04,87.42,84.81,26.36,2,0,0,1
31,0.38,0.88,0.21,76.45,60.64,23.2,2,0,0,1
32,0.15,0.85,0.3,70.78,26.57,9.89,2,0,0,1
33,0.41,0.91,0.05,86.58,82.33,23.96,2,0,0,1
34,0.35,0.83,0.21,75.71,59.04,23,2,0,0,1
35,0.13,0.89,0.27,72.93,25.91,8.48,2,0,0,1
36,0.23,1.02,0.11,83.85,64.23,12.58,2,0,0,1
37,0.37,0.8,0.23,74.13,58.32,24.74,2,0,0,1
38,0.14,0.97,0.28,73.81,26.57,8.26,2,0,0,1
39,0.28,1.04,0.15,81.87,62.18,15.15,2,0,0,1
40,0.4,0.85,0.16,79.6,68.59,25.07,2,0,0,1
41,0.13,0.95,0.27,74.43,26.57,7.93,2,0,0,1
42,0.23,0.99,0.17,80.17,52.82,12.86,2,0,0,1
43,0.4,0.84,0.05,86.29,82.18,25.28,2,0,0,1
44,0.11,0.89,0.19,78.11,30.26,7,2,0,0,1
45,0.17,0.92,0.2,78.04,41.35,10.56,2,0,0,1
46,0.37,0.82,0.15,79.74,67.99,24.11,2,0,0,1
47,0.11,0.86,0.17,78.69,32.47,7.25,2,0,0,1
48,0.17,0.92,0.17,79.44,45,10.56,2,0,0,1
49,0.37,0.79,0.17,77.71,64.92,24.95,2,0,0,1
50,0.08,0.87,0.22,75.84,19.65,5.15,2,0,0,1
51,0.2,0.96,0.22,77.18,42.88,11.94,2,0,0,1
52,0.34,0.82,0.16,79.22,65.56,22.74,2,0,0,1
53,0.12,0.8,0.17,77.94,34.29,8.29,2,0,0,1
54,0.22,0.92,0.14,81.33,57.26,13.35,2,0,0,1
55,0.38,0.83,0.13,80.89,70.5,24.36,2,0,0,1
56,0.2,0.91,0.23,75.5,39.81,12.16,2,0,0,1
57,0.2,0.86,0.26,73.3,37.15,12.8,2,0,0,1
58,0.48,0.9,0.07,85.53,81.74,28.33,2,0,0,1
59,0.34,0.92,0.33,70.41,46.33,20.45,2,0,0,1
1,0.21,0.84,0.45,61.54,24.96,14.16,1,0,0,0
2,0.2,0.84,0.45,61.54,24.15,13.66,1,0,0,0
3,0.2,0.85,0.44,62.81,24.06,12.92,1,0,0,0
4,0.2,0.83,0.44,62.15,24.06,13.27,1,0,0,0
5,0.2,0.86,0.41,64.27,25.25,12.8,1,0,0,0
6,0.2,0.84,0.41,63.86,26.13,13.54,1,0,0,0
7,0.21,0.86,0.4,65.13,27.9,13.79,1,0,0,0
8,0.2,0.84,0.4,64.72,27.01,13.54,1,0,0,0
9,0.14,0.9,0.37,67.77,20.96,8.9,2,0,0,0
10,0.16,0.91,0.18,78.88,42.4,10.18,2,0,0,0
11,0.2,0.95,0.23,76.18,40.91,12.03,2,0,0,0
12,0.12,0.92,0.32,70.84,20.1,7.24,2,0,0,0
13,0.33,0.88,0.34,69,44.33,20.56,2,0,0,0
14,0.18,0.91,0.32,70.53,29.29,11.21,2,0,0,0
15,0.09,0.88,0.36,67.85,14.62,6.06,2,0,0,0
16,0.35,0.83,0.34,67.92,46.3,23,2,0,0,0
17,0.21,0.93,0.35,69.29,30.96,12.78,2,0,0,0
18,0.15,0.84,0.35,67.19,22.89,10.07,2,0,0,0
19,0.32,0.9,0.32,70.38,45,19.62,2,0,0,0
20,0.27,1.05,0.45,66.96,31.55,14.64,2,0,0,0
21,0.11,0.83,0.36,66.54,16.93,7.52,2,0,0,0
22,0.25,0.94,0.34,69.86,36.03,14.93,2,0,0,0
23,0.24,1.06,0.45,66.9,28.12,12.84,2,0,0,0
24,0.06,0.84,0.36,66.74,9.87,4.28,2,0,0,0
25,0.3,0.86,0.28,71.88,46.55,19.06,2,0,0,0
26,0.27,0.88,0.4,65.52,34.46,17.35,2,0,0,0
27,0.14,0.84,0.35,67.38,21.8,9.46,2,0,0,1
28,0.3,0.83,0.2,76.73,57.34,20.2,2,0,0,1
29,0.21,0.86,0.28,71.88,36.87,13.79,2,0,0,1
30,0.02,0.89,0.27,73.39,5.04,1.51,2,0,0,1
31,0.26,0.78,0.21,74.89,50.71,18.26,2,0,0,1
32,0.32,0.83,0.32,68.85,45,21.15,2,0,0,1
33,0.04,0.87,0.25,73.92,8.88,2.58,2,0,0,1
34,0.19,0.88,0.29,71.87,32.97,11.99,2,0,0,1
35,0.27,0.84,0.3,70.14,41.91,17.96,2,0,0,1
36,0.05,0.91,0.3,71.86,10.44,3.45,2,0,0,1
37,0.23,0.77,0.22,74.21,46.97,16.86,2,0,0,1
38,0.2,0.92,0.33,70.41,30.76,11.96,2,0,0,1
39,0.1,0.88,0.26,73.72,21.5,6.56,2,0,0,1
40,0.27,0.76,0.19,76.1,54.78,19.32,2,0,0,1
41,0.25,0.88,0.32,70.06,37.97,15.81,2,0,0,1
42,0.12,0.85,0.29,71.25,22.07,7.84,2,0,0,1
43,0.38,0.87,0.3,71.1,52.21,23.82,2,0,0,1
44,0.09,1.03,0.23,77.61,22.48,5.19,2,0,0,1
45,0.05,0.88,0.34,68.73,9.04,3.54,2,0,0,1
46,0.37,0.88,0.31,70.51,49.6,22.58,2,0,0,1
47,0.14,1.02,0.27,75.34,27.9,7.88,2,0,0,1
48,0.06,0.9,0.25,74.45,14.04,3.98,2,0,0,1
49,0.32,0.87,0.27,72.5,49.51,20.27,2,0,0,1
50,0.23,0.98,0.34,70.75,33.39,12.96,2,0,0,1
51,0.11,0.88,0.23,75,25.02,7.13,2,0,0,1
52,0.27,0.91,0.27,73.21,44.17,16.34,2,0,0,1
53,0.14,0.99,0.27,75.01,27.9,8.07,2,0,0,1
54,0.02,0.85,0.27,72.68,5.04,1.58,2,0,0,1
55,0.27,0.86,0.24,74.26,47.64,17.18,2,0,0,1
56,0.17,0.98,0.33,71.43,27.65,9.98,2,0,0,1
57,0.03,0.89,0.2,77.15,8.75,2.01,2,0,0,1
58,0.28,0.83,0.21,75.71,53.13,18.76,2,0,0,1
59,0.27,0.93,0.36,68.87,36.47,15.95,2,0,0,1
1,0.22,0.84,0.43,62.8,26.98,14.66,1,0
2,0.23,0.83,0.43,62.58,28.61,15.8,1,0
3,0.08,0.91,0.45,64.03,9.95,4.89,1,0
4,0.34,0.93,0.27,73.61,51.5,20.29,2,0,0,0
5,0.34,0.77,0.35,65.56,44.36,23.96,2,0,0,0
6,0.15,0.88,0.28,72.18,27.82,9.63,2,0,0,0
7,0.12,0.89,0.35,68.46,18.43,7.5,2,0,0,0
8,0.37,0.8,0.21,75.31,60.12,24.53,2,0,0,0
9,0.32,0.85,0.33,68.93,44.31,20.61,2,0,0,0
10,0.14,0.89,0.34,69.33,22.71,8.97,2,0,0,0
11,0.24,0.98,0.34,71.02,35.79,13.93,2,0,0,0
12,0.37,0.78,0.27,70.71,53.33,25.17,2,0,0,0
13,0.1,0.83,0.16,78.79,31.76,6.99,2,0,0,0
14,0.09,0.98,0.21,77.91,22.17,4.99,2,0,0,0
15,0.38,0.91,0.13,82.15,71.57,22.48,2,0,0,0
16,0.27,0.93,0.25,74.95,47.56,16.39,2,0,0,1
17,0.02,0.94,0.14,81.47,6.34,0.95,2,0,0,1
18,0.29,0.95,0.04,87.63,82.3,17,2,0,0,1
19,0.41,0.81,0.2,76.48,64.32,26.57,2,0,0,1
20,-0.02,0.95,0.1,83.92,-8.75,-0.94,2,0,0,1
21,0.19,0.98,0.05,86.79,73.74,10.87,2,0,0,1
22,0.34,0.84,0.18,77.87,62.4,22.35,2,0,0,1
23,0.13,0.98,0.09,84.56,54.78,7.68,2,0,0,1
24,0.17,1.09,0.13,83.03,52.31,8.99,2,0,0,1
25,0.37,0.87,0.16,79.79,66.95,22.95,2,0,0,1
26,0.23,0.99,0.17,80.17,52.82,12.86,2,0,0,1
27,0.12,0.94,0.11,83.35,46.97,7.13,2,0,0,1
28,0.37,0.88,0.13,81.37,70.11,22.77,2,0,0,1
29,0.23,0.89,0.13,81.52,60.46,14.74,2,0,0,1
30,0.06,0.9,0.1,83.55,31.61,3.98,2,0,0,1
31,0.33,0.91,0.03,88.03,84.56,19.9,2,0,0,1
32,0.33,0.81,0.27,71.4,50.19,21.99,2,0,0,1
33,0.03,0.89,0.15,80.54,11.89,2.01,2,0,0,1
34,0.27,0.86,0.01,89.48,88.36,17.65,2,0,0,1
35,0.32,0.84,0.22,75.34,55.67,20.97,2,0,0,1
36,0.1,0.95,0.15,81.15,34.38,6.08,2,0,0,1
37,0.27,1.06,0.09,85.38,72.55,14.43,2,0,0,1
38,0.37,0.87,0.19,77.8,62.95,22.95,2,0,0,1
39,0.07,1,-0.05,92.68,123.69,4.02,2,0,0,1
40,0.23,1.04,0.17,80.61,52.82,12.3,2,0,0,1
41,0.33,0.82,0.13,81.34,69.15,21.8,2,0,0,1
42,0.09,0.91,0.11,83.12,40.6,5.91,2,0,0,1
43,0.16,1.02,0.15,81.75,46.47,8.68,2,0,0,1
44,0.38,0.88,0.17,78.89,65.38,23.2,2,0,0,1
45,0.14,0.93,0.18,79.06,38.05,8.6,2,0,0,1
46,0.05,0.92,0.22,76.65,12.09,2.91,2,0,0,1
47,0.33,0.92,0.03,88.06,84.56,19.59,2,0,0,1
48,0.32,0.82,0.28,71.08,48.72,21.33,2,0,0,1
49,0.07,0.85,0.16,79.6,24.23,4.72,2,0,0,1
50,0.31,0.88,0.06,85.91,78.69,19.65,2,0,0,1
51,0.36,0.88,0.21,76.56,59.59,22.15,2,0,0,1
52,0.11,0.99,0.13,82.82,41.19,6.29,2,0,0,1
53,0.29,0.97,-0.02,91.39,94.64,16.61,2,0,0,1
54,0.38,0.86,0.23,75.23,59.38,24.01,2,0,0,1
55,0.11,0.98,0.16,80.91,34.99,6.39,2,0,0,1
56,0.3,1.05,0.07,86.19,77.01,16.11,2,0,0,1
57,0.37,0.84,0.18,77.87,63.92,23.71,2,0,0,1
58,0.08,0.86,0.09,83.77,39.81,5.19,2,0,0,1
59,0.26,0.97,0.07,85.85,74.74,14.9,2,0,0,1
1,0.23,0.84,0.41,63.65,28.69,15.16,1,0,0,0
2,0.17,0.85,0.41,64.5,22.93,11.41,1,0,0,0
3,0.12,0.87,0.38,66.18,17.02,7.7,1,0,0,0
4,0.35,0.93,0.27,73.61,52.13,20.71,2,0,0,0
5,0.3,0.92,0.38,67.86,38.37,17.85,2,0,0,0
6,0.15,0.83,0.36,66.54,22.44,10.16,2,0,0,0
7,0.27,0.97,0.33,71.29,39.81,15.76,2,0,0,0
8,0.34,0.81,0.29,70.42,49.94,22.93,2,0,0,0
9,0.12,0.86,0.29,71.41,22.07,7.77,2,0,0,0
10,0.13,0.87,0.38,66.18,19.13,8.71,2,0,0,0
11,0.32,0.9,0.3,71.71,47.17,19.62,2,0,0,0
12,0.24,1,0.37,69.84,33.41,13.61,2,0,0,0
13,0.12,0.85,0.36,67.12,18.06,7.84,2,0,0,0
14,0.34,0.86,0.16,79.19,64.49,21.8,2,0,0,1
15,0.16,0.99,0.22,77.57,36.87,9.39,2,0,0,1
16,0.11,0.89,0.23,75.26,25.02,7,2,0,0,1
17,0.37,0.91,0.13,82.21,71.2,21.89,2,0,0,1
18,0.08,0.99,0.05,86.85,55.01,4.5,2,0,0,1
19,0.09,0.92,0.27,73.93,17.93,5.33,2,0,0,1
20,0.34,0.9,0.18,78.69,61.86,20.5,2,0,0,1
21,0.13,0.93,0.09,84.24,54.78,8.13,2,0,0,1
22,0.09,0.91,0.22,76.43,23.2,5.91,2,0,0,1
23,0.34,0.73,0.15,78.45,66.16,24.81,2,0,0,1
24,0.1,0.98,0.03,88.17,72.9,5.94,2,0,0,1
25,0.09,0.91,0.24,75.04,19.54,5.42,2,0,0,1
26,0.16,0.94,0.43,65.38,20.9,9.93,2,0,0,1
27,0.27,1.09,0.25,77.13,46.74,13.65,2,0,0,1
28,0.1,0.95,0.21,77.42,25.71,6.13,2,0,0,1
29,0.13,0.89,0.38,66.74,19.13,8.48,2,0,0,1
30,0.31,0.88,0.18,78.4,60.1,19.65,2,0,0,1
31,0.11,0.89,0.2,77.15,28.3,7,2,0,0,1
32,0.16,0.87,0.35,67.93,23.96,10.21,2,0,0,1
33,0.35,0.87,0.16,79.79,66.04,22.07,2,0,0,1
34,0.18,0.91,0.22,76.54,39.4,11.12,2,0,0,1
35,0.13,0.89,0.28,72.47,23.96,7.99,2,0,0,1
36,0.3,0.78,0.14,79.8,64.65,20.81,2,0,0,1
37,0.27,0.98,0.12,83.16,66.8,15.64,2,0,0,1
38,0.08,0.92,0.18,78.97,23.5,4.84,2,0,0,1
39,0.2,0.94,0.35,69.44,30.02,12.23,2,0,0,1
40,0.28,1.03,0.09,85.24,73.01,15.26,2,0,0,1
41,0.04,0.95,0.16,80.69,14.04,2.35,2,0,0,1
42,0.27,1.02,0.38,69.49,35.54,14.96,2,0,0,1
43,0.34,0.91,0.12,82.63,71.18,20.77,2,0,0,1
44,0.02,0.94,0.1,83.82,12.99,1.43,2,0,0,1
45,0.19,0.95,0.18,79.24,46.22,11.22,2,0,0,1
46,0.17,0.97,0.21,77.72,39.17,10.06,2,0,0,1
47,0.09,0.91,0.21,76.9,22.17,5.42,2,0,0,1
48,0.4,0.92,0.09,84.19,76.76,23.37,2,0,0,1
49,0.42,0.81,0.24,73.4,60.14,27.44,2,0,0,1
50,0.1,0.95,0.23,76.08,23.43,6.13,2,0,0,1
51,0.36,0.94,0.08,85.24,77.74,20.97,2,0,0,1
52,0.39,0.85,0.19,77.58,64.36,24.64,2,0,0,1
53,0.1,0.93,0.2,77.68,26.57,6.23,2,0,0,1
54,0.3,0.92,0.02,88.54,85.49,17.85,2,0,0,1
55,0.38,0.84,0.18,77.87,64.4,24.16,2,0,0,1
56,0.13,1.02,0.15,81.68,41.82,7.45,2,0,0,1
57,0.21,0.92,0.04,87.57,79.51,12.89,2,0,0,1
58,0.37,0.89,0.09,83.99,75.68,22.41,2,0,0,1
59,0.07,0.89,0.13,82.01,29.36,4.51,2,0,0,1
1,0.24,0.86,0.36,67.31,33.98,15.74,1,0,0,0
2,0.24,0.86,0.36,67.31,33.98,15.74,1,0,0,0
3,0.3,0.8,0.38,64.34,38.52,20.92,1,0,0,0
4,0.02,0.96,0.3,72.41,4.4,1.4,2,0,0,0
5,0.32,0.84,0.12,82.02,69.9,20.97,2,0,0,0
6,0.11,0.91,0.27,73.8,22.38,6.82,2,0,0,0
7,0.09,0.89,0.34,69.33,15.59,6.01,2,0,0,0
8,0.3,0.8,0.27,71.73,48.92,20.74,2,0,0,0
9,0.23,0.95,0.34,70.02,34.29,13.92,2,0,0,0
10,0.08,0.9,0.34,69.5,13.09,4.97,2,0,0,0
11,0.34,0.9,0.23,75.85,56.61,20.94,2,0,0,0
12,0.28,0.93,0.36,68.87,38.05,16.83,2,0,0,0
13,0.14,0.85,0.32,69.39,23.7,9.38,2,0,0,0
14,0.3,0.84,0.2,76.46,56.31,19.86,2,0,0,0
15,0.3,0.91,0.31,70.97,43.53,18.14,2,0,0,0
16,0.09,0.94,0.27,73.74,18.92,5.71,2,0,0,0
17,0.27,0.88,0.11,82.87,68.2,17.35,2,0,0,0
18,0.26,0.96,0.13,82.59,64.13,15.02,2,0,0,1
19,0.1,0.91,0.13,81.66,37.41,6.39,2,0,0,1
20,0.28,0.86,-0.06,94.16,102.53,18.12,2,0,0,1
21,0.21,1.02,-0.02,90.87,94.24,11.65,2,0,0,1
22,0.11,0.89,0.05,86.99,66.8,7,2,0,0,1
23,0.28,0.88,0.06,85.91,77.47,17.82,2,0,0,1
24,0.15,0.84,0.07,85.24,64.65,9.98,2,0,0,1
25,0.18,1.02,0.11,83.9,58.67,9.96,2,0,0,1
26,0.34,0.84,0.15,80.02,66.16,21.71,2,0,0,1
27,0.07,0.88,0.06,85.91,48.37,4.59,2,0,0,1
28,0.19,1.02,0.02,89.13,85.24,10.38,2,0,0,1
29,0.28,0.96,0.02,88.6,85.24,16.31,2,0,0,1
30,0.08,0.91,0.12,82.69,33.69,4.89,2,0,0,1
31,0.25,0.78,0.02,88.85,86.42,17.74,2,0,0,1
32,0.23,1.01,0,90,90,12.67,2,0,0,1
33,0.11,0.94,0.03,88.09,74.05,6.65,2,0,0,1
34,0.27,0.83,0.07,85.15,75.58,18.27,2,0,0,1
35,0.09,0.98,0,90,90,5.03,2,0,0,1
36,0.18,1.13,0.02,89.2,85.03,9.07,2,0,0,1
37,0.27,0.9,0.1,83.55,69.08,16.47,2,0,0,1
38,0.05,0.99,0.03,88.2,56.31,2.7,2,0,0,1
39,0.27,0.97,-0.08,94.61,106.39,15.33,2,0,0,1
40,0.21,1.02,0.03,88.25,81.57,11.65,2,0,0,1
41,0.09,0.9,0.1,83.55,40.24,5.46,2,0,0,1
42,0.3,0.86,-0.02,91.04,92.94,19.52,2,0,0,1
43,0.2,0.98,0.04,87.73,79.11,11.66,2,0,0,1
44,0.13,1.04,-0.01,90.43,93.37,7.28,2,0,0,1
45,0.3,0.85,0.12,82.16,68.46,19.22,2,0,0,1
46,0.14,0.84,0.16,79.41,41.99,9.55,2,0,0,1
47,0.24,0.98,-0.02,91.37,95.53,13.93,2,0,0,1
48,0.27,0.99,0.16,80.61,59.04,15.41,2,0,0,1
49,0.12,0.91,0.16,80.22,36.87,7.37,2,0,0,1
50,0.32,0.85,0.14,80.62,66.3,20.61,2,0,0,1
51,0.16,0.94,0.08,85.24,63.43,9.46,2,0,0,1
52,0.13,0.98,0.09,84.97,55.49,7.29,2,0,0,1
53,0.35,0.87,0.09,84.34,76.26,22.07,2,0,0,1
54,0.12,0.91,0.15,80.78,38.29,7.31,2,0,0,1
55,0.34,0.91,0,90,90,20.77,2,0,0,1
56,0.34,0.93,0.13,82.34,69.59,19.87,2,0,0,1
57,0.1,0.98,0.08,85.43,52.43,5.94,2,0,0,1
58,0.2,1.01,0.1,84.25,62.53,10.97,2,0,0,1